==========================================
Question 1: SDTM DS Domain Creation
Start Time: 2026-02-27 00:18:19 
==========================================

Loading raw data...
Raw data loaded: 850 records

Raw data structure:
tibble [850 × 13] (S3: tbl_df/tbl/data.frame)
 $ STUDY     : chr [1:850] "CDISCPILOT01" "CDISCPILOT01" "CDISCPILOT01" "CDISCPILOT01" ...
 $ PATNUM    : chr [1:850] "701-1015" "701-1015" "701-1015" "701-1023" ...
 $ SITENM    : chr [1:850] "CDISCPILOT" "CDISCPILOT" "CDISCPILOT" "CDISCPILOT" ...
 $ INSTANCE  : chr [1:850] "Baseline" "Week 26" "Week 26" "Baseline" ...
 $ FORM      : chr [1:850] "DISC1" "DISC1" "DISC1" "DISC1" ...
 $ FORML     : chr [1:850] "Subject Disposition" "Subject Disposition" "Subject Disposition" "Subject Disposition" ...
 $ IT.DSTERM : chr [1:850] "Randomized" "Protocol Completed" NA "Randomized" ...
 $ IT.DSDECOD: chr [1:850] "Randomized" "Completed" NA "Randomized" ...
 $ OTHERSP   : chr [1:850] NA NA "Final Lab Visit" NA ...
 $ DSDTCOL   : chr [1:850] "01-02-2014" "07-02-2014" "07-02-2014" "08-05-2012" ...
 $ DSTMCOL   : chr [1:850] NA NA "11:45" NA ...
 $ IT.DSSTDAT: chr [1:850] "01-02-2014" "07-02-2014" "07-02-2014" "08-05-2012" ...
 $ DEATHDT   : chr [1:850] NA NA NA NA ...
 - attr(*, "label")= chr "Disposition"

Loading controlled terminology from CSV...
Controlled terminology loaded with 164 terms
Disposition codelist (C66727) contains 10 terms

Defining domain key...
Creating DS domain...

Step 1: Creating ISO8601 formatted dates...
ISO8601 dates created successfully.
Step 2: Applying controlled terminology mapping...
Controlled terminology applied and variables finalized.
Step 3: Selecting and ordering final SDTM variables...
DS Domain Creation Summary:
---------------------------
Total records: 850 
Unique subjects: 306 
Date range: 2012-01-09 to 2015-05-03 

Variable summary:
   STUDYID             DOMAIN            USUBJID              DSSEQ      
 Length:850         Length:850         Length:850         Min.   :1.000  
 Class :character   Class :character   Class :character   1st Qu.:1.000  
 Mode  :character   Mode  :character   Mode  :character   Median :2.000  
                                                          Mean   :2.024  
                                                          3rd Qu.:3.000  
                                                          Max.   :4.000  
                                                                         
    DSTERM            DSDECOD             DSCAT              VISITNUM     
 Length:850         Length:850         Length:850         Min.   : 1.000  
 Class :character   Class :character   Class :character   1st Qu.: 1.000  
 Mode  :character   Mode  :character   Mode  :character   Median : 5.000  
                                                          Mean   : 5.133  
                                                          3rd Qu.:10.000  
                                                          Max.   :10.000  
                                                          NA's   :106     
    VISIT              DSDTC             DSSTDTC              DSSTDY   
 Length:850         Length:850         Length:850         Min.   : NA  
 Class :character   Class :character   Class :character   1st Qu.: NA  
 Mode  :character   Mode  :character   Mode  :character   Median : NA  
                                                          Mean   :NaN  
                                                          3rd Qu.: NA  
                                                          Max.   : NA  
                                                          NA's   :850  

First 10 records:
# A tibble: 10 × 12
   STUDYID      DOMAIN USUBJID  DSSEQ DSTERM  DSDECOD DSCAT VISITNUM VISIT DSDTC
   <chr>        <chr>  <chr>    <int> <chr>   <chr>   <chr>    <dbl> <chr> <chr>
 1 CDISCPILOT01 DS     701-1015     1 Random… RANDOM… Subj…        1 Base… 2014…
 2 CDISCPILOT01 DS     701-1015     2 Protoc… PROTOC… Subj…       10 Week… 2014…
 3 CDISCPILOT01 DS     701-1015     3 Final … FINAL … Subj…       10 Week… 2014…
 4 CDISCPILOT01 DS     701-1023     1 Random… RANDOM… Subj…        1 Base… 2012…
 5 CDISCPILOT01 DS     701-1023     2 Advers… ADVERS… Subj…        3 Week… 2012…
 6 CDISCPILOT01 DS     701-1023     3 Final … FINAL … Subj…        3 Week… 2012…
 7 CDISCPILOT01 DS     701-1023     4 Final … FINAL … Subj…       NA Retr… 2013…
 8 CDISCPILOT01 DS     701-1028     1 Random… RANDOM… Subj…        1 Base… 2013…
 9 CDISCPILOT01 DS     701-1028     2 Protoc… PROTOC… Subj…       10 Week… 2014…
10 CDISCPILOT01 DS     701-1028     3 Final … FINAL … Subj…       10 Week… 2014…
# ℹ 2 more variables: DSSTDTC <chr>, DSSTDY <int>

DSTERM frequencies:

                                                  Adverse Event 
                                                             92 
                                           Caregiver Became Ill 
                                                              1 
                                               Caregiver Burden 
                                                              1 
                          Caregiver Decision:  See Comment Page 
                                                              1 
                        Caregiver Was Hospitalized;see Comments 
                                                              1 
                                  Caregiver Withdrew from Study 
                                                              1 
                                                          Death 
                                                              3 
                            Dr Put Pt on an Excluded Medication 
                                                              1 
                                   Family Wishes to Discontinue 
                                                              1 
                                                Final Lab Visit 
                                                            254 
                                          Final Retrieval Visit 
                                                             36 
                                             Hyperbilirubinemia 
                                                              1 
                                              Institutionalized 
                                                              1 
                 Lack of Efficacy, Patient Caregiver Perception 
                                                              4 
                                      Leaving Area for 5 Months 
                                                              1 
                                               Patch Discomfort 
                                                              1 
                                              Patient is Moving 
                                                              1 
                                    Patient Refuses to Continue 
                                                              1 
                             Patient to Begin Course of Aricept 
                                                              1 
     Patient Unable to Tolerate Dermal Irritation at Patch Site 
                                                              1 
                                       Patient Withdrew Consent 
                                                              3 
                                         Placed in Nursing Home 
                                                              1 
                                       Pmd Decision Due to Ae's 
                                                              1 
                                             Protocol Completed 
                                                            110 
                                Protocol Entry Criteria not Met 
                                                              3 
                                             Protocol Violation 
                                                              3 
       Pt Finds Patches"Inconvenient & Itchy;pt Prefers'pills'" 
                                                              1 
                                       Pt Kept Removing Patches 
                                                              1 
                                                     Randomized 
                                                            254 
                                                 Screen Failure 
                                                             52 
Sponsor Decision (Study or Patient Discontinued by the Sponsor) 
                                                              7 
                                                Too many Visits 
                                                              1 
                                 Too Much Trouble for Caregiver 
                                                              1 
                   Too Time Consuming;pt Refused Future Holters 
                                                              1 
                  Unable to Contact Patient (Lost to Follow-Up) 
                                                              2 
                                               Withdraw Consent 
                                                              1 
                       Withdraw Consent Due to Compliancy Issue 
                                                              1 
                                              Withdraws Consent 
                                                              1 
                                               Withdrew Consent 
                                                              2 

DSDECOD frequencies:

                                                  ADVERSE EVENT 
                                                             92 
                                           CAREGIVER BECAME ILL 
                                                              1 
                                               CAREGIVER BURDEN 
                                                              1 
                          CAREGIVER DECISION:  SEE COMMENT PAGE 
                                                              1 
                        CAREGIVER WAS HOSPITALIZED;SEE COMMENTS 
                                                              1 
                                  CAREGIVER WITHDREW FROM STUDY 
                                                              1 
                                                          DEATH 
                                                              3 
                            DR PUT PT ON AN EXCLUDED MEDICATION 
                                                              1 
                                   FAMILY WISHES TO DISCONTINUE 
                                                              1 
                                                FINAL LAB VISIT 
                                                            254 
                                          FINAL RETRIEVAL VISIT 
                                                             36 
                                             HYPERBILIRUBINEMIA 
                                                              1 
                                              INSTITUTIONALIZED 
                                                              1 
                 LACK OF EFFICACY, PATIENT CAREGIVER PERCEPTION 
                                                              4 
                                      LEAVING AREA FOR 5 MONTHS 
                                                              1 
                                               PATCH DISCOMFORT 
                                                              1 
                                              PATIENT IS MOVING 
                                                              1 
                                    PATIENT REFUSES TO CONTINUE 
                                                              1 
                             PATIENT TO BEGIN COURSE OF ARICEPT 
                                                              1 
     PATIENT UNABLE TO TOLERATE DERMAL IRRITATION AT PATCH SITE 
                                                              1 
                                       PATIENT WITHDREW CONSENT 
                                                              3 
                                         PLACED IN NURSING HOME 
                                                              1 
                                       PMD DECISION DUE TO AE'S 
                                                              1 
                                             PROTOCOL COMPLETED 
                                                            110 
                                PROTOCOL ENTRY CRITERIA NOT MET 
                                                              3 
                                             PROTOCOL VIOLATION 
                                                              3 
       PT FINDS PATCHES"INCONVENIENT & ITCHY;PT PREFERS'PILLS'" 
                                                              1 
                                       PT KEPT REMOVING PATCHES 
                                                              1 
                                                     RANDOMIZED 
                                                            254 
                                                 SCREEN FAILURE 
                                                             52 
SPONSOR DECISION (STUDY OR PATIENT DISCONTINUED BY THE SPONSOR) 
                                                              7 
                                                TOO MANY VISITS 
                                                              1 
                                 TOO MUCH TROUBLE FOR CAREGIVER 
                                                              1 
                   TOO TIME CONSUMING;PT REFUSED FUTURE HOLTERS 
                                                              1 
                  UNABLE TO CONTACT PATIENT (LOST TO FOLLOW-UP) 
                                                              2 
                                               WITHDRAW CONSENT 
                                                              1 
                       WITHDRAW CONSENT DUE TO COMPLIANCY ISSUE 
                                                              1 
                                              WITHDRAWS CONSENT 
                                                              1 
                                               WITHDREW CONSENT 
                                                              2 

Saving DS domain to CSV...

==========================================
Question 1 Completed Successfully!
End Time: 2026-02-27 00:18:19 
Output saved to: question_1_sdtm/ds_output.csv
==========================================
